timestamp(ms),acc.x,acc.y,acc.z
0.0,0.4150390625,-0.6235198974609375,-0.5203704833984375
20,0.412338257,-0.639755249,-0.633987427
40,0.354492188,-0.711029053,-0.599578857
60,0.36807251,-0.739959717,-0.513015747
80,0.386566162,-0.781234741,-0.466415405
100,0.374145508,-0.768264771,-0.463012695
120,0.364700317,-0.735916138,-0.472961426
140,0.389328003,-0.700942993,-0.557235718
160,0.362487793,-0.70161438,-0.611602783
180,0.33782959,-0.730758667,-0.61541748
200,0.369598389,-0.784210205,-0.61958313
220,0.395629883,-0.787765503,-0.598251343
240,0.440444946,-0.876235962,-0.428695679
260,0.496627808,-0.933959961,-0.316772461
280,0.492126465,-0.992446899,-0.416809082
300,0.382797241,-0.951675415,-0.354431152
320,0.374435425,-0.943313599,-0.289382935
340,0.350738525,-0.986557007,-0.350128174
360,0.352600098,-0.976226807,-0.327850342
380,0.351257324,-1.060836792,-0.202072144
400,0.346740723,-1.063812256,-0.095291138
420,0.299179077,-0.968338013,-0.043823242
440,0.271850586,-1.001617432,0.080581665
460,0.253509521,-0.823944092,0.143341064
480,0.30291748,-1.050216675,-0.185211182
500,0.296203613,-1.07460022,-0.351852417
520,0.374084473,-1.03855896,-0.306274414
540,0.40814209,-0.989151001,-0.188446045
560,0.428771973,-0.977386475,-0.116424561
580,0.438140869,-1.053390503,-0.170883179
600,0.380050659,-1.161636353,-0.21156311
620,0.384033203,-1.24822998,-0.089157104
640,0.328948975,-1.235092163,0.155776978
660,0.239181519,-1.241729736,0.279632568
680,0.199813843,-1.223709106,0.230255127
700,0.174163818,-1.139968872,0.112991333
720,0.176879883,-1.046203613,-0.017700195
740,0.140167236,-0.99005127,-0.072341919
760,0.166564941,-0.957489014,-0.031982422
780,0.14680481,-0.922958374,0.06590271
800,0.140716553,-0.902206421,0.078552246
820,0.219848633,-0.922348022,0.006164551
840,0.192260742,-0.881958008,0.02532959
860,0.215927124,-0.812255859,0.071609497
880,0.228149414,-0.759796143,0.101165771
900,0.172210693,-0.750183105,0.099716187
920,0.149780273,-0.723846436,0.157043457
940,0.146896362,-0.732528687,0.203826904
960,0.147079468,-0.727310181,0.214645386
980,0.122619629,-0.757522583,0.198135376
1000,0.070724487,-0.796722412,0.140213013
1020,0.086166382,-0.764633179,0.155715942
1040,0.138900757,-0.816268921,0.142196655
1060,0.155136108,-0.835723877,0.184249878
1080,0.161880493,-0.797927856,0.228027344
1100,0.178482056,-0.809158325,0.32824707
1120,0.193328857,-0.810089111,0.459152222
1140,0.229888916,-0.875701904,0.621871948
1160,0.395263672,-1.038909912,0.688354492
1180,0.455337524,-1.088562012,0.630615234
1200,0.445373535,-1.213531494,0.504974365
1220,0.426773071,-1.254821777,0.618484497
1240,0.364883423,-1.057876587,0.773895264
1260,0.124557495,-0.966445923,0.627380371
1280,0.149459839,-1.044387817,0.332778931
1300,0.230010986,-1.057327271,0.008102417
1320,0.296569824,-1.145309448,-0.31628418
1340,0.330749512,-1.129318237,-0.264663696
1360,0.282241821,-1.247802734,0.337814331
1380,0.233642578,-1.011688232,0.661453247
1400,0.195541382,-0.804214478,-0.244338989
1420,0.017883301,-0.806930542,-0.07081604
1440,0.221618652,-0.987945557,-0.151855469
1460,0.12197876,-0.918746948,-0.478439331
1480,0.278945923,-1.009506226,-0.425582886
1500,0.373596191,-1.081176758,-0.180938721
1520,0.318511963,-1.046142578,0.074066162
1540,0.158126831,-1.009155273,0.176010132
1560,0.047332764,-0.939712524,0.242111206
1580,0.076293945,-0.814117432,0.118133545
1600,0.175796509,-0.783630371,-0.010894775
1620,0.227249146,-0.821746826,-0.096359253
1640,0.260314941,-0.829666138,-0.136245728
1660,0.333999634,-0.835968018,-0.138458252
1680,0.364547729,-0.866577148,-0.092651367
1700,0.409713745,-0.872665405,0.008911133
1720,0.459289551,-0.946411133,0.072677612
1740,0.37399292,-0.986404419,0.153015137
1760,0.324539185,-0.939102173,0.199417114
1780,0.288864136,-0.894271851,0.152954102
1800,0.276000977,-0.922775269,0.057922363
1820,0.33164978,-0.844085693,-0.022567749
1840,0.335067749,-0.870986938,-0.058013916
1860,0.258911133,-0.919082642,-0.047302246
1880,0.332000732,-0.982803345,-0.090545654
1900,0.36088562,-1.025894165,-0.163772583
1920,0.420471191,-1.058303833,-0.152694702
1940,0.390319824,-1.214981079,-0.094055176
1960,0.388275146,-1.273330688,-0.049407959
1980,0.378555298,-1.292053223,0.064865112
2000,0.405166626,-1.303375244,0.295883179
2020,0.473861694,-1.302597046,0.181869507
2040,0.41758728,-1.33807373,-0.045669556
2060,0.35635376,-1.263839722,-0.044921875
2080,0.25680542,-1.125747681,0.000823975
2100,0.216537476,-1.002029419,-0.000869751
2120,0.162017822,-0.94960022,-0.0519104
2140,0.110290527,-0.992507935,-0.112976074
2160,0.10559082,-1.112426758,-0.091674805
2180,0.178543091,-1.155899048,0.123962402
2200,0.315963745,-1.08190918,0.274307251
2220,0.377182007,-1.010803223,0.190826416
2240,0.383071899,-0.888595581,0.109741211
2260,0.321624756,-0.78125,0.05519104
2280,0.269454956,-0.674972534,0.029891968
2300,0.178726196,-0.598632813,0.029647827
2320,0.126815796,-0.554977417,0.07232666
2340,0.120223999,-0.572662354,0.095535278
2360,0.096298218,-0.598815918,0.069107056
2380,0.117095947,-0.655975342,0.023544312
2400,0.099395752,-0.715255737,-0.013320923
2420,0.094345093,-0.735244751,0.01574707
2440,0.105072021,-0.781478882,0.088088989
2460,0.122161865,-0.799453735,0.210296631
2480,0.144012451,-0.803497314,0.434417725
2500,0.147506714,-0.883468628,0.688095093
2520,0.197570801,-0.950515747,1.014968872
2540,0.526062012,-1.169616699,1.218185425
2560,0.584899902,-1.2684021,0.928421021
2580,0.596405029,-1.340270996,0.515533447
2600,0.565063477,-1.249435425,0.571243286
2620,0.311340332,-0.945587158,0.761154175
2640,0.125213623,-0.979187012,0.600784302
2660,0.095275879,-0.974609375,0.35534668
2680,0.146728516,-1.056350708,-0.054260254
2700,0.265213013,-1.138061523,-0.263137817
2720,0.303695679,-1.046615601,0.231155396
2740,0.346221924,-0.889251709,0.028762817
2760,0.173629761,-0.848190308,-0.108200073
2780,0.18460083,-0.655029297,-0.169082642
2800,0.237503052,-0.848266602,-0.600494385
2820,0.192565918,-1.047225952,-0.719589233
2840,0.228027344,-1.08757019,-0.128341675
2860,0.317489624,-1.098190308,0.182327271
2880,0.314163208,-1.100326538,0.134155273
2900,0.190795898,-0.957687378,0.497711182
2920,0.167755127,-0.88420105,0.145568848
2940,0.193130493,-0.681793213,0.039855957
2960,0.217254639,-0.739868164,-0.063095093
2980,0.237182617,-0.771560669,-0.087387085
3000,0.303985596,-0.850646973,-0.126037598
3020,0.381790161,-0.859710693,-0.104125977
3040,0.457489014,-0.845397949,-0.007141113
3060,0.469284058,-0.849075317,0.130691528
3080,0.394638062,-0.913589478,0.161270142
3100,0.352416992,-0.952468872,0.167770386
3120,0.331268311,-0.973892212,0.037597656
3140,0.312744141,-0.972183228,-0.079101563
3160,0.283874512,-0.917373657,-0.110275269
3180,0.282592773,-0.917144775,-0.066879272
3200,0.359115601,-0.988830566,-0.068023682
3220,0.423019409,-1.036407471,-0.058792114
3240,0.486480713,-1.142745972,-0.032241821
3260,0.499465942,-1.251022339,-0.019760132
3280,0.492980957,-1.298782349,0.025238037
3300,0.532958984,-1.287902832,0.119232178
3320,0.566864014,-1.277145386,0.211517334
3340,0.515914917,-1.243423462,0.150695801
3360,0.413391113,-1.339523315,-0.097167969
3380,0.311660767,-1.143356323,-0.059509277
3400,0.242660522,-0.985733032,-0.03805542
3420,0.167373657,-1.01210022,-0.081069946
3440,0.063964844,-1.138137817,-0.032226563
3460,0.008880615,-1.254669189,0.150131226
3480,0.152694702,-1.225921631,0.249710083
3500,0.317871094,-1.103759766,0.271026611
3520,0.382965088,-0.932418823,0.184814453
3540,0.398147583,-0.767379761,0.095809937
3560,0.367919922,-0.608352661,0.024368286
3580,0.274200439,-0.550720215,0.00050354
3600,0.170639038,-0.515136719,0.048843384
3620,0.102111816,-0.487640381,0.076644897
3640,0.057113647,-0.48828125,0.099945068
3660,0.047027588,-0.524673462,0.089981079
3680,0.065032959,-0.60458374,0.033905029
3700,0.081710815,-0.693740845,0.007232666
3720,0.136581421,-0.803909302,0.059524536
3740,0.195159912,-0.835189819,0.184844971
3760,0.252456665,-0.913131714,0.311813354
3780,0.275924683,-0.937316895,0.476364136
3800,0.272872925,-0.898956299,0.728012085
3820,0.233825684,-0.880218506,1.087768555
3840,0.495559692,-1.178863525,1.390304565
3860,0.583526611,-1.171356201,0.883300781
3880,0.551483154,-1.394943237,0.422698975
3900,0.491668701,-1.12600708,0.559799194
3920,0.20223999,-0.846328735,0.711654663
3940,0.004776001,-0.999664307,0.559188843
3960,-0.049758911,-1.122467041,0.243240356
3980,0.03553772,-1.379730225,-0.381439209
4000,0.188308716,-1.278274536,-0.443466187
4020,0.34677124,-1.179321289,0.384063721
4040,0.652359009,-0.922683716,0.178222656
4060,0.270370483,-0.915985107,-0.312484741
4080,0.255615234,-0.730529785,-0.299560547
4100,0.199996948,-0.880310059,-0.561584473
4120,0.183319092,-1.084762573,-0.589355469
4140,0.187835693,-1.00944519,-0.067077637
4160,0.227844238,-1.007675171,0.159622192
4180,0.192077637,-0.964004517,0.449447632
4200,0.17175293,-1.04637146,0.228424072
4220,0.245010376,-0.801223755,0.107650757
4240,0.304611206,-0.836105347,-0.055343628
4260,0.284118652,-0.791244507,-0.113311768
4280,0.31060791,-0.802749634,-0.136123657
4300,0.354095459,-0.810333252,-0.159713745
4320,0.403717041,-0.813583374,-0.119735718
4340,0.43371582,-0.861312866,-0.012634277
4360,0.404449463,-0.890594482,0.162689209
4380,0.365722656,-0.951248169,0.170181274
4400,0.338928223,-0.923843384,0.104934692
4420,0.3309021,-0.900512695,0.043746948
4440,0.34362793,-0.84173584,-0.002883911
4460,0.338165283,-0.796844482,0.041992188
4480,0.412948608,-0.792572021,0.016860962
4500,0.52041626,-0.86946106,-0.005599976
4520,0.592163086,-0.949554443,-0.112731934
4540,0.672592163,-1.042068481,-0.048706055
4560,0.713531494,-1.120803833,0.06350708
4580,0.599533081,-1.224273682,0.088348389
4600,0.479125977,-1.223815918,0.158691406
4620,0.400466919,-1.279327393,0.06867981
4640,0.33706665,-1.23248291,0.120880127
4660,0.268280029,-1.261032104,0.086013794
4680,0.195678711,-1.234466553,-0.025482178
4700,0.110366821,-1.157363892,-0.128662109
4720,0.073760986,-1.024551392,0.023193359
4740,0.052902222,-0.971221924,0.086776733
4760,-0.008666992,-1.075012207,0.028778076
4780,-0.017227173,-1.183197021,0.061935425
4800,0.111129761,-1.201889038,0.206970215
4820,0.247467041,-1.068969727,0.272644043
4840,0.324462891,-0.964584351,0.18862915
4860,0.360275269,-0.809997559,0.08430481
4880,0.365341187,-0.669967651,0.101165771
4900,0.340637207,-0.596069336,0.196014404
4920,0.228103638,-0.572479248,0.245803833
4940,0.14906311,-0.573303223,0.254348755
4960,0.088821411,-0.579391479,0.251739502
4980,0.073562622,-0.61076355,0.217453003
5000,0.069656372,-0.681228638,0.171691895
5020,0.071334839,-0.748474121,0.170593262
5040,0.085098267,-0.810516357,0.166397095
5060,0.065567017,-0.818222046,0.265090942
5080,0.116012573,-0.82699585,0.37059021
5100,0.147674561,-0.84161377,0.446090698
5120,0.182998657,-0.847122192,0.524749756
5140,0.196304321,-0.848220825,0.749725342
5160,0.261444092,-0.906204224,1.083251953
5180,0.532226563,-1.081344604,1.199707031
5200,0.558029175,-1.170410156,0.713317871
5220,0.448928833,-1.190475464,0.63659668
5240,0.206710815,-1.03314209,0.704620361
5260,0.009384155,-0.910552979,0.604751587
5280,-0.078704834,-1.049560547,0.479324341
5300,0.010574341,-1.198974609,0.268890381
5320,0.101303101,-1.287185669,-0.00012207
5340,0.16317749,-1.312332153,-0.183563232
5360,0.28918457,-1.256484985,0.099533081
5380,0.471252441,-1.111831665,0.521133423
5400,0.45539856,-0.772293091,-0.166915894
5420,0.344268799,-0.642089844,-0.179290771
5440,0.19367981,-0.488571167,0.015823364
5460,0.351974487,-0.812423706,-0.36114502
5480,0.284637451,-1.099777222,-0.466934204
5500,0.231750488,-1.062301636,-0.060470581
5520,0.267700195,-1.063461304,0.204971313
5540,0.354141235,-1.123809814,0.10256958
5560,0.368225098,-0.991516113,0.31477356
5580,0.335098267,-0.87411499,0.335830688
5600,0.306304932,-0.803192139,0.113250732
5620,0.318069458,-0.742919922,0.062194824
5640,0.331817627,-0.802062988,0.041473389
5660,0.299880981,-0.863143921,-0.025756836
5680,0.27180481,-0.831710815,-0.049407959
5700,0.289459229,-0.830566406,-0.058074951
5720,0.323165894,-0.889648438,-0.088226318
5740,0.331359863,-0.906021118,-0.008071899
5760,0.344955444,-0.922317505,0.085617065
5780,0.341812134,-0.930587769,0.064849854
5800,0.330581665,-0.954147339,0.049865723
5820,0.325637817,-0.945053101,0.057785034
5840,0.331054688,-0.926391602,0.071609497
5860,0.356262207,-0.928817749,0.07144165
5880,0.390853882,-0.931213379,0.049697876
5900,0.471481323,-0.974807739,-0.005828857
5920,0.518463135,-1.001449585,-0.057052612
5940,0.536193848,-1.031417847,-0.074935913
5960,0.54624939,-1.058563232,-0.037063599
5980,0.530548096,-1.150054932,-0.062515259
6000,0.50088501,-1.203308105,-0.009124756
6020,0.493225098,-1.195739746,0.108184814
6040,0.474578857,-1.164993286,0.285675049
6060,0.39251709,-1.106170654,0.263809204
6080,0.429153442,-1.148330688,-0.031951904
6100,0.440460205,-1.164367676,-0.18182373
6120,0.35987854,-0.99559021,-0.161895752
6140,0.240951538,-0.923171997,-0.070419312
6160,0.166519165,-1.050415039,0.005981445
6180,0.105514526,-1.169509888,0.253982544
6200,0.194747925,-1.165237427,0.347381592
6220,0.328781128,-1.134613037,0.207458496
6240,0.339538574,-1.080108643,0.085800171
6260,0.385055542,-0.861282349,0.049118042
6280,0.393890381,-0.696228027,0.040054321
6300,0.355056763,-0.603637695,0.040390015
6320,0.277542114,-0.570037842,0.019332886
6340,0.213821411,-0.557937622,0.040908813
6360,0.12437439,-0.555969238,0.034561157
6380,0.144378662,-0.573638916,-0.001296997
6400,0.17225647,-0.611038208,-0.025115967
6420,0.159835815,-0.661071777,0.01574707
6440,0.110992432,-0.723403931,0.054138184
6460,0.134124756,-0.813034058,0.068130493
6480,0.127761841,-0.902770996,0.222869873
6500,0.109207153,-0.897857666,0.480285645
6520,0.255599976,-0.934951782,0.686431885
6540,0.398773193,-0.987991333,1.087646484
6560,0.485229492,-1.024383545,1.171035767
6580,0.580322266,-1.022750854,0.940689087
6600,0.751251221,-1.109329224,0.632156372
6620,0.575820923,-0.99230957,0.47164917
6640,0.268539429,-0.908035278,0.472686768
6660,0.129226685,-0.996795654,0.405349731
6680,0.092758179,-1.042877197,0.265441895
6700,0.156860352,-1.18421936,-0.030639648
6720,0.323226929,-1.240905762,-0.272994995
6740,0.399337769,-1.254348755,1.094589233
6760,0.354553223,-0.825378418,-0.242355347
6780,0.380050659,-1.194473267,-0.034851074
6800,-0.030059814,-0.778762817,-0.063323975
6820,0.234222412,-0.953338623,-0.612136841
6840,0.183746338,-1.088531494,-0.820053101
6860,0.335571289,-1.064804077,-0.431152344
6880,0.412796021,-1.116119385,-0.098892212
6900,0.352523804,-1.03414917,0.367706299
6920,0.189620972,-0.963226318,0.639877319
6940,0.040847778,-1.004867554,0.092788696
6960,0.099411011,-0.86706543,0.002410889
6980,0.257843018,-0.709747314,0.110275269
7000,0.286239624,-0.665313721,0.041931152
7020,0.313964844,-0.769561768,-0.07623291
7040,0.341278076,-0.854888916,-0.139709473
7060,0.356887817,-0.908126831,-0.126098633
7080,0.483108521,-0.837539673,0.135253906
7100,0.476028442,-0.829864502,0.242126465
7120,0.398452759,-0.898376465,0.319534302
7140,0.368850708,-0.967453003,0.095321655
7160,0.346176147,-1.026535034,-0.043685913
7180,0.329345703,-0.912902832,-0.007492065
7200,0.306915283,-0.830215454,0.043441772
7220,0.305511475,-0.911117554,-0.026351929
7240,0.310684204,-0.98085022,-0.096191406
7260,0.3097229,-1.039001465,-0.108398438
7280,0.320068359,-1.101654053,-0.062789917
7300,0.355239868,-1.161956787,-0.015869141
7320,0.392913818,-1.241149902,-0.02557373
7340,0.414321899,-1.289550781,0.081039429
7360,0.493408203,-1.255477905,0.217529297
7380,0.501907349,-1.253662109,0.148025513
7400,0.478668213,-1.260772705,-0.023422241
7420,0.462539673,-1.153305054,-0.113510132
7440,0.425811768,-1.08821106,-0.109420776
7460,0.323501587,-0.863800049,-0.018280029
7480,0.333312988,-0.935211182,-0.089736938
7500,0.355178833,-1.070205688,-0.10899353
7520,0.39630127,-1.240646362,0.053787231
7540,0.501785278,-1.221588135,0.147094727
7560,0.521896362,-1.082931519,0.168670654
7580,0.503204346,-0.898666382,0.164215088
7600,0.4349823,-0.788452148,0.083847046
7620,0.321411133,-0.687637329,0.056686401
7640,0.253479004,-0.570953369,0.052536011
7660,0.23248291,-0.512756348,0.066329956
7680,0.232620239,-0.532028198,0.057144165
7700,0.239257813,-0.596847534,0.02973938
7720,0.176376343,-0.625488281,-0.022827148
7740,0.148788452,-0.714569092,-0.032363892
7760,0.119171143,-0.734024048,0.035232544
7780,0.113037109,-0.671798706,0.16758728
7800,0.158493042,-0.710998535,0.280410767
7820,0.217453003,-0.785964966,0.427261353
7840,0.226211548,-0.824783325,0.589202881
7860,0.298583984,-0.900466919,0.743835449
7880,0.512908936,-1.327423096,0.736602783
7900,0.623382568,-1.357666016,0.914016724
7920,0.46661377,-1.155609131,0.943237305
7940,0.380279541,-0.8881073,0.679153442
7960,0.263656616,-0.876037598,0.510940552
7980,0.172149658,-0.941726685,0.362213135
8000,0.168991089,-0.964736938,0.220840454
8020,0.308685303,-1.090499878,-0.024673462
8040,0.477783203,-1.158172607,-0.22869873
8060,0.588150024,-1.114196777,-0.166168213
8080,0.650024414,-1.148986816,0.530105591
8100,0.300643921,-0.872177124,0.781921387
8120,0.202514648,-0.851150513,0.938308716
8140,0.484466553,-0.882797241,0.423812866
8160,0.576187134,-0.908309937,-1.33895874
8180,0.092834473,-0.757293701,-0.627731323
8200,0.471725464,-0.668716431,-0.325439453
8220,0.626678467,-0.625320435,0.034912109
8240,0.519226074,-0.615234375,0.265319824
8260,0.390625,-1.035644531,-0.112869263
8280,0.202377319,-0.998336792,0.413772583
8300,0.295257568,-1.263076782,0.144195557
8320,0.378707886,-1.163711548,0.215927124
8340,0.543899536,-0.915145874,0.233398438
8360,0.510757446,-0.852264404,0.070648193
8380,0.372192383,-0.709655762,0.015899658
8400,0.250778198,-0.64730835,-0.012130737
8420,0.292495728,-0.760742188,-0.007492065
8440,0.365264893,-0.85697937,0.059768677
8460,0.448608398,-0.934204102,0.128799438
8480,0.463867188,-0.939575195,0.170166016
8500,0.428466797,-0.93296814,0.07800293
8520,0.444793701,-0.960861206,0.023696899
8540,0.465026855,-0.983810425,0.007522583
8560,0.426574707,-0.971237183,0.033172607
8580,0.384246826,-0.975387573,0.027282715
8600,0.347976685,-1.014785767,0.036697388
8620,0.365890503,-1.054946899,0.023300171
8640,0.412185669,-1.116958618,0.050323486
8660,0.470413208,-1.161682129,0.164962769
8680,0.529388428,-1.161834717,0.183441162
8700,0.627685547,-1.149230957,0.11265564
8720,0.613327026,-1.153137207,0.110092163
8740,0.442474365,-1.057876587,0.20010376
8760,0.484237671,-0.97164917,0.120666504
8780,0.537521362,-0.920654297,0.031494141
8800,0.637374878,-0.886062622,-0.069763184
8820,0.731140137,-0.944396973,-0.082366943
8840,0.780548096,-0.992324829,-0.001556396
8860,0.779449463,-0.984924316,0.017807007
8880,0.735275269,-1.021591187,0.015106201
8900,0.543716431,-0.945892334,0.033950806
8920,0.477432251,-0.850265503,0.015441895
8940,0.418869019,-0.807571411,-0.016845703
8960,0.389007568,-0.757095337,-0.016952515
8980,0.405227661,-0.750869751,-0.012802124
9000,0.405166626,-0.767272949,-0.002792358
9020,0.418624878,-0.841949463,0.014221191
9040,0.447128296,-0.930114746,0.023498535
9060,0.444351196,-0.940383911,0.063766479
9080,0.414932251,-0.930023193,0.118484497
9100,0.395278931,-0.940963745,0.11895752
9120,0.369812012,-0.971359253,0.131439209
9140,0.292449951,-0.96496582,0.216278076
9160,0.311294556,-0.917938232,0.18838501
9180,0.325408936,-0.913879395,0.132598877
9200,0.24130249,-0.825027466,0.135940552
9220,0.175079346,-0.790252686,0.18737793
9240,0.060302734,-0.807815552,0.340484619
9260,0.002304077,-0.801193237,0.481582642
9280,0.240234375,-0.87538147,0.555496216
9300,0.533782959,-0.962844849,0.545150757
9320,0.734573364,-0.897949219,0.528442383
9340,0.755081177,-0.802062988,0.566268921
9360,0.715026855,-0.852371216,0.447235107
9380,0.649841309,-0.910095215,0.341171265
9400,0.512985229,-1.021011353,0.169174194
9420,0.441116333,-1.01121521,-0.001541138
9440,0.360870361,-1.047012329,0.030029297
9460,0.307922363,-1.184738159,0.236587524
9480,0.521972656,-1.090148926,0.761932373
9500,0.327072144,-0.883895874,0.000106812
9520,0.414352417,-0.975448608,-0.12387085
9540,0.284866333,-0.928329468,-0.398468018
9560,0.338989258,-0.926544189,-0.621200562
9580,0.267181396,-0.985656738,-0.630020142
9600,0.304107666,-0.994247437,-0.186462402
9620,0.269714355,-0.939163208,0.177947998
9640,0.246353149,-0.936355591,0.22694397
9660,0.093215942,-0.842926025,0.526184082
9680,0.153167725,-0.914871216,0.021072388
9700,0.290084839,-0.807159424,-0.037124634
9720,0.420852661,-0.760162354,0.046035767
9740,0.47076416,-0.781921387,-0.028457642
9760,0.465393066,-0.79397583,-0.114379883
9780,0.508575439,-0.847473145,-0.132446289
9800,0.412612915,-0.904602051,-0.025802612
9820,0.340515137,-0.920974731,-0.012207031
9840,0.326309204,-0.914031982,0.038742065
9860,0.368148804,-0.887374878,-0.014587402
9880,0.303466797,-0.924667358,0.009262085
9900,0.297607422,-0.888442993,-0.07572937
9920,0.268112183,-0.865341187,-0.032180786
9940,0.287399292,-0.854553223,0.000976563
9960,0.3228302,-0.911270142,0.017486572
9980,0.424972534,-0.969314575,0.010955811
10000,0.504776001,-1.043426514,-0.130813599
